#Wave		#Intensity
3550.434570	78703.890625
3549.202148	78167.984375
3547.970703	78909.148438
3546.738281	78647.898438
3545.505859	78260.492188
3544.272461	78541.015625
3543.039063	78485.562500
3541.805664	79101.687500
3540.572266	78789.757813
3539.338867	79086.171875
3538.104492	78701.148438
3536.870117	79339.031250
3535.634766	78980.523438
3534.400391	78162.843750
3533.165039	78420.421875
3531.929688	78649.437500
3530.693359	78246.664063
3529.458008	78589.320313
3528.221680	78537.953125
3526.984375	78492.687500
3525.748047	78366.257813
3524.510742	78442.765625
3523.273438	78040.507813
3522.036133	78820.773438
3520.797852	79219.500000
3519.559570	78452.414063
3518.321289	78776.046875
3517.083008	79002.257813
3515.843750	78650.992188
3514.604492	79239.679688
3513.365234	79054.546875
3512.125000	79322.984375
3510.884766	78830.226563
3509.644531	79228.101563
3508.404297	79380.976563
3507.163086	79009.867188
3505.921875	79538.875000
3504.680664	79153.718750
3503.439453	78837.453125
3502.197266	79390.375000
3500.955078	79888.500000
3499.712891	79057.101563
3498.469727	78989.523438
3497.227539	79299.585938
3495.983398	79605.460938
3494.740234	79065.460938
3493.496094	79512.507813
3492.252930	79707.148438
3491.007813	80040.875000
3489.763672	79835.992188
3488.518555	79665.460938
3487.273438	80504.929688
3486.028320	79763.953125
3484.782227	79686.210938
3483.536133	80230.984375
3482.290039	80497.562500
3481.043945	79819.617188
3479.796875	80299.554688
3478.549805	79974.164063
3477.302734	80160.039063
3476.055664	80774.367188
3474.807617	80362.562500
3473.559570	79769.929688
3472.310547	79843.062500
3471.062500	79739.257813
3469.813477	80529.812500
3468.564453	80566.539063
3467.314453	80066.867188
3466.064453	81033.554688
3464.814453	80744.820313
3463.564453	80373.898438
3462.314453	80079.398438
3461.063477	80376.984375
3459.812500	80210.992188
3458.560547	80430.171875
3457.308594	80480.796875
3456.057617	80832.132813
3454.804688	80776.390625
3453.552734	80893.015625
3452.299805	81133.804688
3451.046875	80639.320313
3449.792969	80395.375000
3448.540039	81164.695313
3447.286133	80416.257813
3446.032227	80288.585938
3444.777344	80861.296875
3443.522461	80963.617188
3442.267578	80389.859375
3441.012695	80538.218750
3439.756836	80808.453125
3438.500977	80932.648438
3437.245117	81204.656250
3435.989258	81104.929688
3434.732422	81760.281250
3433.475586	81019.406250
3432.218750	81171.328125
3430.960938	81191.429688
3429.703125	81233.460938
3428.445313	80541.210938
3427.187500	80493.578125
3425.928711	80693.273438
3424.669922	80872.921875
3423.411133	80649.796875
3422.151367	80986.820313
3420.891602	80630.242188
3419.631836	80939.203125
3418.372070	80497.132813
3417.111328	80961.296875
3415.850586	80833.953125
3414.589844	81222.179688
3413.328125	80111.757813
3412.066406	80525.820313
3410.804688	80915.820313
3409.542969	80597.671875
3408.280273	80581.859375
3407.017578	80528.281250
3405.754883	80156.742188
3404.491211	80288.046875
3403.227539	80127.273438
3401.963867	80397.531250
3400.700195	80340.039063
3399.435547	79958.976563
3398.170898	80864.187500
3396.906250	80276.789063
3395.640625	80165.773438
3394.375000	80374.132813
3393.109375	80041.031250
3391.843750	80056.992188
3390.577148	79971.851563
3389.310547	80197.867188
3388.042969	80134.507813
3386.776367	79980.054688
3385.508789	80140.531250
3384.241211	79918.812500
3382.972656	80194.023438
3381.705078	80217.773438
3380.436523	80567.968750
3379.166992	80298.835938
3377.898438	79606.585938
3376.628906	80150.429688
3375.359375	80326.328125
3374.088867	79980.375000
3372.818359	80013.945313
3371.547852	79468.671875
3370.277344	79917.093750
3369.005859	79587.296875
3367.734375	80009.804688
3366.462891	79869.601563
3365.191406	79970.195313
3363.918945	79905.007813
3362.646484	79467.062500
3361.373047	79824.007813
3360.100586	79999.398438
3358.827148	79676.015625
3357.553711	79583.343750
3356.279297	80201.945313
3355.004883	80371.156250
3353.730469	79374.429688
3352.456055	79557.507813
3351.180664	79453.101563
3349.905273	80196.953125
3348.629883	80192.781250
3347.353516	79897.468750
3346.077148	80276.851563
3344.800781	80715.046875
3343.524414	80091.500000
3342.247070	80637.617188
3340.969727	79621.351563
3339.691406	80149.632813
3338.414063	79491.375000
3337.135742	79689.539063
3335.857422	80246.875000
3334.578125	80093.429688
3333.298828	80187.304688
3332.019531	80440.031250
3330.740234	80682.828125
3329.459961	80056.796875
3328.179688	80081.937500
3326.899414	80563.757813
3325.618164	80823.914063
3324.336914	80486.382813
3323.055664	79673.015625
3321.774414	80694.953125
3320.492188	80136.414063
3319.209961	80186.875000
3317.927734	80384.085938
3316.644531	80594.898438
3315.361328	80529.781250
3314.078125	80791.296875
3312.793945	80735.929688
3311.509766	80498.781250
3310.225586	80795.273438
3308.941406	80423.382813
3307.656250	80786.156250
3306.371094	80765.960938
3305.085938	80390.390625
3303.799805	80895.414063
3302.513672	81167.937500
3301.227539	80045.171875
3299.940430	80787.898438
3298.654297	80445.859375
3297.367188	80681.156250
3296.079102	80762.328125
3294.791016	81145.554688
3293.502930	81197.335938
3292.214844	80939.320313
3290.926758	80461.320313
3289.637695	80992.226563
3288.347656	81269.789063
3287.058594	80597.375000
3285.768555	81402.242188
3284.478516	81062.765625
3283.188477	81057.992188
3281.897461	81276.843750
3280.606445	81382.828125
3279.315430	81453.757813
3278.023438	81231.210938
3276.731445	81832.539063
3275.439453	81823.656250
3274.147461	82195.398438
3272.854492	81417.562500
3271.561523	82352.132813
3270.267578	81941.382813
3268.974609	82347.656250
3267.679688	81514.195313
3266.385742	81767.148438
3265.091797	81979.257813
3263.796875	82160.250000
3262.500977	82129.906250
3261.206055	81713.984375
3259.910156	81780.585938
3258.614258	82344.890625
3257.318359	82004.687500
3256.021484	82078.898438
3254.724609	81709.867188
3253.427734	82116.906250
3252.129883	82276.132813
3250.832031	81915.015625
3249.534180	82586.601563
3248.235352	82374.414063
3246.936523	82255.085938
3245.637695	81884.609375
3244.338867	82447.367188
3243.039063	82627.445313
3241.739258	82079.460938
3240.438477	82786.554688
3239.138672	82310.171875
3237.837891	82490.078125
3236.537109	82295.632813
3235.235352	82091.617188
3233.933594	81854.914063
3232.631836	82364.390625
3231.329102	82411.039063
3230.027344	81725.406250
3228.723633	82236.460938
3227.420898	82234.929688
3226.117188	82414.398438
3224.813477	82172.156250
3223.509766	81983.906250
3222.205078	82417.296875
3220.900391	82779.296875
3219.595703	82021.671875
3218.290039	82104.742188
3216.985352	82053.179688
3215.678711	82101.585938
3214.373047	82261.421875
3213.066406	81944.703125
3211.759766	82144.820313
3210.453125	82479.257813
3209.145508	82237.554688
3207.837891	81852.000000
3206.529297	82230.382813
3205.221680	82322.710938
3203.913086	82179.062500
3202.604492	82409.421875
3201.294922	81857.414063
3199.985352	82563.093750
3198.675781	81896.312500
3197.365234	81890.828125
3196.055664	82563.421875
3194.744141	82096.234375
3193.433594	82115.570313
3192.122070	82565.570313
3190.810547	82479.515625
3189.499023	81580.343750
3188.186523	82265.414063
3186.874023	81923.195313
3185.561523	81997.937500
3184.248047	82525.664063
3182.934570	82395.726563
3181.621094	81780.539063
3180.307617	82229.601563
3178.993164	81859.171875
3177.678711	81763.843750
3176.363281	82279.375000
3175.047852	81848.093750
3173.732422	82180.187500
3172.416992	82288.945313
3171.100586	81955.195313
3169.784180	81528.164063
3168.467773	81494.000000
3167.150391	81722.835938
3165.833008	81892.492188
3164.515625	81469.640625
3163.197266	81376.453125
3161.878906	81582.218750
3160.560547	81540.421875
3159.241211	81607.109375
3157.921875	81630.000000
3156.602539	81462.648438
3155.283203	81205.984375
3153.962891	81457.078125
3152.642578	81787.890625
3151.321289	81246.234375
3150.000977	81922.726563
3148.679688	81609.218750
3147.357422	81954.843750
3146.036133	81637.656250
3144.713867	81563.585938
3143.390625	81351.000000
3142.068359	81942.984375
3140.745117	81603.296875
3139.420898	81411.687500
3138.097656	81311.164063
3136.773438	81313.039063
3135.449219	80807.007813
3134.124023	81667.289063
3132.798828	81263.679688
3131.473633	81324.242188
3130.148438	81233.296875
3128.822266	81087.484375
3127.496094	81246.429688
3126.168945	81327.710938
3124.841797	81458.132813
3123.514648	81624.414063
3122.187500	81586.406250
3120.859375	80692.117188
3119.531250	81363.023438
3118.203125	81377.984375
3116.874023	81375.929688
3115.544922	81598.593750
3114.215820	81137.671875
3112.885742	81230.031250
3111.555664	81724.304688
3110.225586	81816.460938
3108.894531	81665.234375
3107.563477	81561.218750
3106.232422	81472.320313
3104.901367	81294.867188
3103.569336	81511.351563
3102.237305	82081.929688
3100.904297	81363.828125
3099.571289	81644.148438
3098.238281	81370.789063
3096.905273	81266.968750
3095.571289	81498.156250
3094.237305	81970.046875
3092.902344	81873.656250
3091.568359	81875.085938
3090.233398	82181.078125
3088.897461	81545.210938
3087.561523	82005.218750
3086.225586	81788.640625
3084.889648	82280.289063
3083.552734	81954.812500
3082.215820	82427.398438
3080.878906	82143.320313
3079.541016	81748.648438
3078.203125	82102.726563
3076.865234	82392.851563
3075.526367	82304.039063
3074.187500	82241.500000
3072.848633	82242.710938
3071.509766	82650.554688
3070.169922	82134.578125
3068.829102	81987.820313
3067.489258	82024.632813
3066.148438	82529.453125
3064.807617	82513.703125
3063.465820	82963.882813
3062.124023	81804.953125
3060.782227	82352.335938
3059.440430	82084.156250
3058.097656	82735.882813
3056.754883	82613.515625
3055.411133	82470.640625
3054.067383	82580.023438
3052.723633	82859.304688
3051.379883	82582.000000
3050.035156	82310.421875
3048.690430	82619.406250
3047.344727	82849.867188
3046.000000	82207.148438
3044.654297	82448.773438
3043.307617	82699.593750
3041.960938	82754.546875
3040.614258	82175.789063
3039.267578	82473.054688
3037.919922	82455.343750
3036.572266	82731.898438
3035.224609	82252.343750
3033.875977	82452.476563
3032.527344	82637.609375
3031.178711	82474.703125
3029.829102	82367.679688
3028.479492	82798.164063
3027.128906	82276.460938
3025.779297	82472.531250
3024.428711	82562.562500
3023.077148	82708.281250
3021.726563	81986.445313
3020.375000	82230.648438
3019.022461	82420.875000
3017.670898	82250.898438
3016.318359	82479.984375
3014.964844	81788.703125
3013.612305	81845.265625
3012.258789	82142.875000
3010.904297	82108.460938
3009.550781	81657.007813
3008.196289	81715.367188
3006.841797	82336.906250
3005.486328	81559.695313
3004.130859	81942.078125
3002.775391	82281.687500
3001.418945	81817.820313
3000.062500	81781.632813
2998.706055	81197.843750
2997.348633	81583.507813
2995.991211	81454.921875
2994.633789	81897.632813
2993.275391	81534.281250
2991.916992	81505.546875
2990.558594	80950.320313
2989.199219	81751.000000
2987.839844	81642.812500
2986.480469	81674.960938
2985.120117	81206.937500
2983.760742	81056.492188
2982.399414	80793.578125
2981.039063	81864.203125
2979.677734	81437.109375
2978.315430	80914.343750
2976.954102	81012.906250
2975.591797	81367.523438
2974.228516	80850.656250
2972.866211	80923.351563
2971.502930	81480.242188
2970.139648	81208.515625
2968.775391	81034.445313
2967.411133	81103.312500
2966.046875	81067.289063
2964.681641	81274.023438
2963.316406	81361.140625
2961.951172	81080.593750
2960.584961	81276.125000
2959.218750	81199.640625
2957.852539	81220.539063
2956.485352	81478.296875
2955.118164	80953.835938
2953.750977	81385.898438
2952.382813	81470.914063
2951.014648	81352.250000
2949.646484	81127.250000
2948.277344	81751.351563
2946.908203	82167.992188
2945.539063	81332.609375
2944.168945	81364.328125
2942.798828	81533.421875
2941.428711	81609.015625
2940.057617	81397.093750
2938.686523	81525.750000
2937.315430	81676.304688
2935.943359	81861.539063
2934.571289	81918.625000
2933.198242	81737.929688
2931.826172	81635.937500
2930.453125	81879.460938
2929.079102	82322.062500
2927.705078	82055.531250
2926.331055	82249.437500
2924.957031	81928.257813
2923.582031	82268.140625
2922.207031	82197.156250
2920.832031	82416.351563
2919.456055	82317.984375
2918.080078	82482.304688
2916.703125	82011.945313
2915.326172	81873.609375
2913.949219	82404.250000
2912.572266	82311.429688
2911.194336	82143.945313
2909.816406	82167.781250
2908.437500	82171.562500
2907.058594	82382.859375
2905.679688	82282.828125
2904.299805	82452.140625
2902.920898	82741.414063
2901.540039	82415.828125
2900.160156	83141.335938
2898.779297	82394.054688
2897.398438	82690.304688
2896.016602	82955.507813
2894.634766	82977.164063
2893.252930	82849.890625
2891.870117	82709.960938
2890.487305	82629.984375
2889.104492	82662.554688
2887.720703	82887.414063
2886.336914	83054.109375
2884.953125	83286.000000
2883.568359	82718.257813
2882.183594	83087.851563
2880.798828	83680.140625
2879.413086	83078.265625
2878.027344	82706.695313
2876.640625	82963.632813
2875.254883	82938.023438
2873.867188	82865.359375
2872.480469	83574.406250
2871.092773	82846.750000
2869.705078	82920.632813
2868.317383	82817.273438
2866.928711	82748.296875
2865.540039	82979.351563
2864.150391	82984.437500
2862.760742	82611.976563
2861.371094	83530.929688
2859.980469	83266.828125
2858.589844	82842.203125
2857.199219	82955.546875
2855.807617	83076.039063
2854.416016	82603.046875
2853.024414	82873.218750
2851.632813	82553.734375
2850.240234	82593.062500
2848.846680	82167.460938
2847.453125	82287.921875
2846.059570	82356.078125
2844.666016	82746.515625
2843.271484	82422.070313
2841.876953	82396.531250
2840.482422	81955.359375
2839.086914	81672.687500
2837.691406	81629.343750
2836.294922	81580.617188
2834.898438	81974.109375
2833.501953	81851.625000
2832.105469	82088.523438
2830.708008	81375.085938
2829.309570	81543.734375
2827.912109	81360.398438
2826.513672	81157.398438
2825.115234	81541.281250
2823.715820	81515.929688
2822.316406	81226.921875
2820.916992	81441.929688
2819.516602	81574.351563
2818.116211	81407.390625
2816.714844	80953.812500
2815.314453	80873.054688
2813.913086	81123.656250
2812.510742	81030.351563
2811.108398	80860.101563
2809.706055	81191.039063
2808.303711	81528.953125
2806.900391	81618.062500
2805.496094	81127.695313
2804.092773	81145.320313
2802.688477	81293.414063
2801.284180	81307.398438
2799.878906	80803.257813
2798.473633	81367.476563
2797.068359	81104.625000
2795.662109	81132.890625
2794.255859	80989.789063
2792.849609	80980.578125
2791.442383	81067.703125
2790.035156	81194.007813
2788.626953	80940.453125
2787.218750	81302.015625
2785.810547	81062.796875
2784.402344	81144.406250
2782.993164	81120.867188
2781.583008	81035.000000
2780.173828	80881.507813
2778.763672	81343.960938
2777.353516	82251.070313
2775.942383	81238.054688
2774.531250	81644.914063
2773.120117	81286.929688
2771.708008	81081.992188
2770.295898	81636.085938
2768.882813	81322.765625
2767.469727	81441.265625
2766.056641	81612.984375
2764.643555	81589.296875
2763.229492	81251.406250
2761.815430	81259.742188
2760.400391	81136.773438
2758.985352	81840.468750
2757.570313	81658.875000
2756.154297	81447.226563
2754.738281	81184.265625
2753.322266	81768.492188
2751.905273	81363.828125
2750.488281	82053.984375
2749.070313	81821.195313
2747.653320	81285.796875
2746.234375	81743.570313
2744.816406	81695.039063
2743.397461	81968.484375
2741.978516	81852.695313
2740.558594	81751.101563
2739.138672	81948.296875
2737.718750	81551.578125
2736.297852	81497.812500
2734.876953	81636.609375
2733.456055	81717.046875
2732.034180	81394.898438
2730.612305	81480.632813
2729.189453	81652.789063
2727.766602	82334.710938
2726.343750	81906.867188
2724.919922	81807.203125
2723.496094	81492.507813
2722.072266	81948.164063
2720.647461	81506.710938
2719.222656	81669.687500
2717.797852	81503.250000
2716.372070	81616.835938
2714.946289	81659.945313
2713.520508	81539.351563
2712.093750	81362.515625
2710.666992	81161.132813
2709.239258	81888.351563
2707.811523	81864.492188
2706.383789	81917.976563
2704.955078	81681.476563
2703.526367	81998.476563
2702.097656	81749.757813
2700.667969	81487.117188
2699.238281	81786.351563
2697.807617	81676.500000
2696.377930	81994.820313
2694.946289	81623.578125
2693.515625	81538.375000
2692.083984	81525.093750
2690.651367	81517.070313
2689.219727	81584.398438
2687.787109	81812.859375
2686.353516	81181.195313
2684.920898	81052.398438
2683.486328	81317.562500
2682.052734	81386.562500
2680.618164	81614.757813
2679.183594	81141.320313
2677.748047	81311.726563
2676.312500	81501.273438
2674.876953	82181.921875
2673.440430	81336.539063
2672.003906	81283.054688
2670.567383	81156.218750
2669.129883	80905.453125
2667.692383	81498.062500
2666.253906	81287.460938
2664.815430	80851.851563
2663.376953	80999.148438
2661.937500	81024.265625
2660.498047	80817.445313
2659.058594	80563.656250
2657.618164	80888.609375
2656.177734	81542.703125
2654.737305	81123.406250
2653.295898	81012.570313
2651.854492	81579.062500
2650.412109	80681.367188
2648.969727	81722.726563
2647.527344	81211.664063
2646.083984	81088.726563
2644.640625	81287.539063
2643.197266	80942.093750
2641.752930	81432.820313
2640.308594	81474.992188
2638.863281	81673.476563
2637.417969	81316.093750
2635.972656	81064.796875
2634.526367	81452.421875
2633.080078	80989.476563
2631.633789	81546.937500
2630.186523	81330.492188
2628.739258	81528.609375
2627.291016	81468.289063
2625.842773	81421.867188
2624.394531	81397.984375
2622.946289	81633.960938
2621.497070	81504.367188
2620.046875	81665.726563
2618.596680	81778.531250
2617.146484	80927.289063
2615.696289	81640.593750
2614.245117	81127.109375
2612.793945	81288.320313
2611.341797	81260.992188
2609.889648	81221.562500
2608.437500	81266.828125
2606.984375	81913.273438
2605.531250	81509.250000
2604.077148	81685.617188
2602.624023	81713.421875
2601.168945	81532.375000
2599.714844	81089.140625
2598.259766	81201.578125
2596.803711	81400.171875
2595.348633	81190.039063
2593.892578	81123.078125
2592.435547	81300.843750
2590.978516	81366.523438
2589.521484	81199.640625
2588.063477	81244.632813
2586.605469	80569.992188
2585.147461	80983.421875
2583.688477	81267.585938
2582.229492	80851.460938
2580.770508	81015.109375
2579.310547	81044.562500
2577.850586	81091.179688
2576.389648	81349.140625
2574.928711	81055.460938
2573.467773	81129.492188
2572.005859	80597.304688
2570.543945	80910.039063
2569.081055	80724.859375
2567.618164	80824.609375
2566.155273	80654.976563
2564.691406	81248.609375
2563.227539	80706.859375
2561.763672	81019.039063
2560.298828	80870.062500
2558.833984	81137.476563
2557.368164	80971.398438
2555.903320	80836.210938
2554.436523	80594.945313
2552.970703	80817.625000
2551.503906	80952.921875
2550.036133	80937.601563
2548.568359	80968.453125
2547.100586	80818.039063
2545.632813	80688.203125
2544.164063	80454.179688
2542.694336	80548.304688
2541.225586	80340.039063
2539.754883	80343.625000
2538.285156	80545.242188
2536.814453	80062.312500
2535.343750	80357.734375
2533.872070	80096.859375
2532.400391	79999.828125
2530.928711	80063.125000
2529.456055	80220.140625
2527.983398	79753.312500
2526.509766	79637.703125
2525.037109	80036.562500
2523.562500	80021.390625
2522.088867	79807.031250
2520.614258	79713.617188
2519.138672	79838.054688
2517.663086	80180.171875
2516.187500	79886.023438
2514.710938	80134.421875
2513.234375	79641.523438
2511.757813	80141.367188
2510.280273	80124.437500
2508.802734	79521.476563
2507.325195	79521.679688
2505.846680	79980.265625
2504.368164	79954.875000
2502.888672	79831.070313
2501.409180	79669.992188
2499.928711	79610.757813
2498.449219	79929.664063
2496.967773	79616.093750
2495.487305	79867.031250
2494.005859	79716.281250
2492.524414	79840.007813
2491.041992	79750.289063
2489.559570	79696.156250
2488.076172	80048.273438
2486.592773	79936.546875
2485.109375	80022.796875
2483.625000	79917.882813
2482.140625	79877.265625
2480.656250	79862.023438
2479.170898	79512.148438
2477.685547	79160.757813
2476.199219	79605.140625
2474.712891	80045.898438
2473.226563	79682.804688
2471.739258	79694.585938
2470.251953	79454.929688
2468.763672	79861.515625
2467.275391	79670.828125
2465.787109	80008.000000
2464.297852	80142.710938
2462.808594	79539.179688
2461.319336	79717.726563
2459.829102	79424.531250
2458.338867	79416.078125
2456.847656	79831.882813
2455.356445	80064.000000
2453.864258	79932.523438
2452.373047	79747.281250
2450.879883	80342.500000
2449.387695	79767.132813
2447.894531	80027.515625
2446.400391	80003.734375
2444.907227	79845.546875
2443.413086	79611.851563
2441.917969	79495.804688
2440.422852	79510.773438
2438.927734	79282.343750
2437.431641	79668.179688
2435.935547	79476.718750
2434.438477	79152.859375
2432.941406	79540.085938
2431.444336	79762.828125
2429.946289	80035.718750
2428.448242	79485.835938
2426.950195	79674.898438
2425.451172	79363.156250
2423.952148	79041.523438
2422.452148	79061.484375
2420.952148	79332.421875
2419.452148	78975.882813
2417.951172	79193.171875
2416.450195	79293.296875
2414.948242	79159.343750
2413.446289	79553.539063
2411.944336	79225.765625
2410.441406	78622.562500
2408.938477	79352.203125
2407.434570	79353.593750
2405.930664	79111.304688
2404.426758	78757.328125
2402.921875	79054.109375
2401.416992	78937.132813
2399.911133	79035.289063
2398.405273	79001.710938
2396.899414	78613.187500
2395.392578	78894.593750
2393.885742	78816.078125
2392.378906	78705.953125
2390.871094	79091.976563
2389.362305	78905.265625
2387.854492	78988.195313
2386.344727	78502.171875
2384.835938	78713.203125
2383.326172	78495.164063
2381.816406	78910.515625
2380.305664	78258.804688
2378.794922	78541.085938
2377.283203	78238.578125
2375.772461	78401.148438
2374.259766	77932.812500
2372.748047	78028.984375
2371.235352	78154.953125
2369.721680	78166.406250
2368.208008	78512.828125
2366.694336	78567.265625
2365.179688	78460.898438
2363.665039	78273.375000
2362.150391	78273.148438
2360.634766	77918.476563
2359.119141	78201.460938
2357.602539	78800.468750
2356.085938	78214.226563
2354.568359	77952.554688
2353.050781	78089.648438
2351.533203	78358.960938
2350.015625	77722.156250
2348.496094	77804.632813
2346.977539	78252.250000
2345.458008	77876.945313
2343.938477	78091.429688
2342.417969	77975.570313
2340.897461	78082.601563
2339.376953	77956.890625
2337.855469	78096.851563
2336.333008	77834.289063
2334.811523	78106.117188
2333.289063	77749.695313
2331.765625	78074.132813
2330.242188	77655.273438
2328.718750	77342.054688
2327.194336	77676.203125
2325.669922	77397.703125
2324.145508	77654.289063
2322.620117	77555.289063
2321.094727	77388.875000
2319.568359	77605.773438
2318.041992	78034.664063
2316.514648	77380.000000
2314.987305	76991.906250
2313.459961	77555.335938
2311.931641	77147.671875
2310.403320	77503.835938
2308.875000	77674.289063
2307.345703	77650.968750
2305.816406	77706.414063
2304.286133	77560.039063
2302.755859	77400.617188
2301.224609	77492.132813
2299.693359	77208.210938
2298.162109	77427.546875
2296.629883	76930.781250
2295.097656	77061.609375
2293.564453	77164.523438
2292.031250	76885.921875
2290.498047	76715.484375
2288.963867	77075.281250
2287.429688	77140.429688
2285.894531	76646.218750
2284.359375	76657.476563
2282.824219	76709.585938
2281.288086	76679.953125
2279.751953	76816.968750
2278.214844	76989.835938
2276.677734	76467.000000
2275.140625	76808.000000
2273.602539	76197.328125
2272.064453	76140.093750
2270.525391	76205.218750
2268.986328	76550.796875
2267.447266	76288.070313
2265.907227	76551.937500
2264.366211	76595.679688
2262.826172	76320.085938
2261.285156	76700.984375
2259.743164	76339.187500
2258.201172	76356.867188
2256.659180	76420.093750
2255.116211	76273.390625
2253.573242	76035.679688
2252.029297	75946.062500
2250.485352	76506.773438
2248.941406	76608.843750
2247.396484	76506.125000
2245.851563	76265.375000
2244.305664	76114.062500
2242.759766	75954.703125
2241.213867	76600.523438
2239.666992	76345.367188
2238.120117	76338.546875
2236.572266	76122.500000
2235.024414	75971.414063
2233.475586	76136.515625
2231.927734	76167.007813
2230.377930	76223.406250
2228.829102	75717.679688
2227.278320	75989.531250
2225.728516	75629.820313
2224.177734	76120.046875
2222.626953	75889.929688
2221.075195	76242.304688
2219.523438	76426.296875
2217.970703	76015.164063
2216.417969	76105.351563
2214.864258	76213.257813
2213.311523	76503.664063
2211.756836	76509.640625
2210.203125	76344.437500
2208.648438	75712.750000
2207.092773	76157.898438
2205.537109	76175.226563
2203.981445	76434.500000
2202.424805	75982.429688
2200.868164	76402.835938
2199.310547	76142.812500
2197.752930	76126.234375
2196.195313	76153.164063
2194.636719	76342.742188
2193.078125	76242.382813
2191.518555	76710.312500
2189.958984	76320.210938
2188.399414	76408.156250
2186.838867	76671.375000
2185.277344	76336.242188
2183.716797	76456.250000
2182.155273	76616.367188
2180.592773	76381.109375
2179.030273	76181.312500
2177.467773	76800.671875
2175.904297	76374.468750
2174.340820	76552.015625
2172.776367	76161.390625
2171.211914	76385.414063
2169.646484	76469.781250
2168.081055	75837.328125
2166.515625	76245.593750
2164.949219	76567.101563
2163.382813	76161.007813
2161.816406	76370.226563
2160.249023	76142.148438
2158.680664	76444.101563
2157.113281	76499.406250
2155.543945	76450.664063
2153.975586	76150.781250
2152.406250	76300.460938
2150.835938	76179.835938
2149.265625	76102.421875
2147.695313	76443.742188
2146.124023	76299.187500
2144.552734	76301.648438
2142.980469	76019.867188
2141.408203	76365.617188
